File: results.csv
Capacity(mAh),Config (s),Discharge (c),Height-B(mm),Length-A(mm),Max Charge Rate (C),Weight (g),Width-C(mm),description
2350.0,4.0,45.0,45.0,144.0,5.0,309.0,25.0,Polyquest XF 2350mAh 4S 45C - 90C Lipoly
3500.0,4.0,45.0,45.0,174.0,5.0,435.0,30.0,Volt On (POLYQUEST) 3500mAh 4S 45C - 90C Lipoly
5000.0,4.0,35.0,49.0,147.0,2.0,554.0,34.0,Turnigy 5000mAh 4S 35C Lipo Pack
5000.0,3.0,35.0,49.0,145.0,2.0,442.0,28.0,Turnigy 5000mAh 3S 35C Lipo Pack
3000.0,3.0,35.0,47.0,150.0,2.0,295.0,22.0,Turnigy 3000mAh 3S 35C Lipo Pack
3000.0,4.0,35.0,43.0,139.0,2.0,364.0,27.0,Turnigy 3000mAh 4S 35C Lipo Pack
3000.0,6.0,35.0,43.0,139.0,2.0,514.0,39.0,Turnigy 3000mAh 6S 35C Lipo Pack
2450.0,2.0,30.0,42.0,135.0,2.0,153.0,11.0,Turnigy 2450mAh 2S 30C Lipo Pack
2450.0,3.0,30.0,43.0,138.0,2.0,218.0,18.0,Turnigy 2450mAh 3S 30C Lipo Pack
2450.0,4.0,30.0,43.0,136.0,2.0,286.0,24.0,Turnigy 2450mAh 4S 30C Lipo Pack
2450.0,6.0,30.0,43.0,140.0,2.0,414.0,33.0,Turnigy 2450mAh 6S 30C Lipo Pack
2200.0,2.0,40.0,34.0,105.0,5.0,140.0,17.0,Turnigy 2200mAh 2S 40C Lipo Pack
2200.0,3.0,40.0,35.0,104.0,5.0,204.0,27.0,Turnigy 2200mAh 3S 40C Lipo Pack
2200.0,4.0,40.0,34.0,110.0,5.0,260.0,34.0,Turnigy 2200mAh 4S 40C Lipo Pack
2200.0,6.0,40.0,34.0,108.0,5.0,373.0,51.0,Turnigy 2200mAh 6S 40C Lipo Pack
4500.0,2.0,30.0,49.0,154.0,2.0,278.0,16.0,Turnigy 4500mAh 2S 30C Lipo Pack
4500.0,3.0,30.0,49.0,147.0,2.0,386.0,29.0,Turnigy 4500mAh 3S 30C Lipo Pack
4500.0,6.0,30.0,49.0,149.0,2.0,745.0,48.0,Turnigy 4500mAh 6S 30C Lipo Pack
5800.0,2.0,25.0,49.0,150.0,2.0,336.0,19.0,Turnigy 5800mAh 2S 25C Lipo Pack
5800.0,4.0,25.0,49.0,150.0,2.0,624.0,40.0,Turnigy 5800mAh 4S 25C Lipo Pack
5800.0,6.0,25.0,47.0,142.0,2.0,929.0,59.0,Turnigy 5800mAh 6S 25C Lipo Pack
1800.0,2.0,40.0,35.0,107.0,5.0,125.0,17.0,Turnigy 1800mAh 2S 40C Lipo Pack
1800.0,3.0,40.0,34.0,109.0,5.0,168.0,21.0,Turnigy 1800mAh 3S 40C Lipo Pack
1800.0,4.0,40.0,34.0,110.0,5.0,213.0,27.0,Turnigy 1800mAh 4S 40C Lipo Pack
1800.0,6.0,40.0,34.0,113.0,5.0,298.0,39.0,Turnigy 1800mAh 6S 40C Lipo Pack
2650.0,2.0,40.0,43.0,135.0,5.0,180.0,13.0,Turnigy 2650mAh 2S 40C Lipo Pack
2650.0,3.0,40.0,43.0,139.0,5.0,250.0,20.0,Turnigy 2650mAh 3S 40C Lipo Pack
2650.0,4.0,40.0,42.0,138.0,5.0,322.0,26.0,Turnigy 2650mAh 4S 40C Lipo Pack
2650.0,6.0,40.0,44.0,138.0,5.0,468.0,38.0,Turnigy 2650mAh 6S 40C Lipo Pack
3000.0,2.0,40.0,42.0,136.0,4.0,198.0,15.0,Turnigy 3000mAh 2S 40C Lipo Pack
3000.0,3.0,40.0,43.0,145.0,5.0,278.0,21.0,Turnigy 3000mAh 3S 40C Lipo Pack
3000.0,4.0,40.0,42.0,143.0,4.0,360.0,28.0,Turnigy 3000mAh 4S 40C Lipo Pack
3000.0,6.0,40.0,42.0,146.0,5.0,522.0,41.0,Turnigy 3000mAh 6S 40C Lipo Pack
4000.0,2.0,40.0,49.0,152.0,4.0,259.0,16.0,Turnigy 4000mAh 2S 40C Lipo Pack
4000.0,3.0,40.0,50.0,144.0,4.0,372.0,22.0,Turnigy 4000mAh 3S 40C Lipo Pack
4000.0,4.0,40.0,50.0,154.0,5.0,476.0,29.0,Turnigy 4000mAh 4S 40C Lipo Pack
4000.0,6.0,40.0,50.0,149.0,4.0,694.0,43.0,Turnigy 4000mAh 6S 40C Lipo Pack
5000.0,2.0,40.0,49.0,147.0,4.0,308.0,18.0,Turnigy 5000mAh 2S 40C Lipo Pack
5000.0,3.0,40.0,50.0,145.0,5.0,443.0,27.0,Turnigy 5000mAh 3S 40C Lipo Pack
5000.0,4.0,40.0,49.0,149.0,5.0,578.0,37.0,Turnigy 5000mAh 4S 40C Lipo Pack
5000.0,6.0,40.0,49.0,150.0,5.0,836.0,52.0,Turnigy 5000mAh 6S 40C Lipo Pack
2200.0,3.0,35.0,34.0,108.0,2.0,199.0,26.0,Turnigy 2200mAh 3S 35C Lipo Pack
2200.0,4.0,35.0,34.0,106.0,2.0,257.0,33.0,Turnigy 2200mAh 4S 35C Lipo Pack
5000.0,6.0,25.0,55.0,299.0,4.0,820.0,26.0,Turnigy 5000mAh 6S 25C Long Lipo Pack
800.0,2.0,20.0,25.0,77.0,2.0,50.0,14.0,Turnigy 800mAh 2S 20C Long Lipo Pack
5800.0,8.0,25.0,49.0,162.0,5.0,1216.0,80.0,Turnigy 5800mAh 8S 25C Lipo Pack
5800.0,8.0,25.0,56.0,350.0,2.0,1262.0,40.0,Turnigy 5800mAh 8S 25C Long Lipo Pack
138.0,2.0,10.0,12.0,35.0,5.0,7.0,12.0,Turnigy 138mAh 2S 10C
160.0,1.0,30.0,12.0,37.0,10.0,4.0,6.0,"Turnigy 160mAh 1S 30C (Eflite, Minium compatible)"
4000.0,3.0,20.0,46.0,78.0,2.0,340.0,49.0,Turnigy 4000mAh 3S 20C Lipo pack (Perfect for QRF400)
130.0,1.0,25.0,12.0,39.0,10.0,4.0,7.0,"Turnigy nano-tech 130mah 1S 25~40C Lipo Pack (Kyosho, Eflite, Parkzone Etc)"
240.0,1.0,30.0,26.0,63.0,2.0,10.0,3.0,ZIPPY 240mAh 30C Single Cell
350.0,1.0,30.0,26.0,63.0,2.0,12.0,4.0,ZIPPY 350mAh 30C Single Cell
400.0,1.0,30.0,26.0,63.0,2.0,13.0,4.0,ZIPPY 400mAh 30C Single Cell
100.0,1.0,20.0,20.0,32.0,2.0,5.0,3.0,ZIPPY 100mAh 20C Single Cell
138.0,1.0,20.0,26.0,37.0,2.0,7.0,3.0,ZIPPY 138mAh 20C Single Cell
160.0,1.0,25.0,12.0,39.0,10.0,5.0,8.0,"Turnigy nano-tech 160mah 1S 25~40C Lipo Pack (Kyosho, E-flite Nano CP X, Parkzone Etc)"
370.0,2.0,25.0,32.0,63.0,5.0,27.0,9.0,Turnigy nano-tech 370mah 2S 25~40C Lipo Pack
370.0,3.0,25.0,31.0,60.0,5.0,39.0,13.0,Turnigy nano-tech 370mah 3S 25~40C Lipo Pack
460.0,2.0,25.0,29.0,65.0,5.0,33.0,11.0,Turnigy nano-tech 460mah 2S 25~40C Lipo Pack
460.0,3.0,25.0,30.0,67.0,5.0,45.0,15.0,Turnigy nano-tech 460mah 3S 25~40C Lipo Pack
850.0,2.0,25.0,31.0,60.0,5.0,49.0,16.0,Turnigy nano-tech 850mah 2S 25~40C Lipo Pack
850.0,3.0,25.0,32.0,63.0,5.0,69.0,25.0,Turnigy nano-tech 850mah 3S 25~40C Lipo Pack
1000.0,2.0,25.0,35.0,71.0,5.0,60.0,12.0,Turnigy nano-tech 1000mah 2S 25~50C Lipo Pack
1000.0,3.0,25.0,35.0,77.0,5.0,79.0,17.0,Turnigy nano-tech 1000mah 3S 25~50C Lipo Pack
1300.0,2.0,25.0,34.0,85.0,5.0,86.0,16.0,Turnigy nano-tech 1300mah 2S 25~50C Lipo Pack
1300.0,3.0,25.0,34.0,70.0,5.0,119.0,22.0,Turnigy nano-tech 1300mah 3S 25~50C Lipo Pack
1600.0,2.0,25.0,32.0,118.0,5.0,103.0,15.0,Turnigy nano-tech 1600mah 2S 25~50C Lipo Pack
1600.0,3.0,25.0,34.0,120.0,5.0,143.0,18.0,Turnigy nano-tech 1600mah 3S 25~50C Lipo Pack
1800.0,2.0,25.0,35.0,115.0,5.0,113.0,15.0,Turnigy nano-tech 1800mah 2S 25~50C Lipo Pack
1800.0,3.0,25.0,35.0,115.0,5.0,161.0,21.0,Turnigy nano-tech 1800mah 3S 25~50C Lipo Pack
1800.0,4.0,25.0,36.0,117.0,5.0,207.0,28.0,Turnigy nano-tech 1800mah 4S 25~50C Lipo Pack
2200.0,2.0,25.0,35.0,112.0,5.0,133.0,18.0,Turnigy nano-tech 2200mah 2S 25~50C Lipo Pack
2200.0,3.0,25.0,35.0,106.0,5.0,187.0,24.0,Turnigy nano-tech 2200mah 3S 25~50C Lipo Pack
2200.0,4.0,25.0,35.0,119.0,5.0,239.0,32.0,Turnigy nano-tech 2200mah 4S 25~50C Lipo Pack
2200.0,6.0,25.0,35.0,119.0,5.0,353.0,46.0,Turnigy nano-tech 2200mah 6S 25~50C Lipo Pack
2650.0,2.0,25.0,44.0,147.0,5.0,151.0,11.0,Turnigy nano-tech 2650mah 2S 25~50C Lipo Pack
2650.0,3.0,25.0,44.0,148.0,5.0,215.0,18.0,Turnigy nano-tech 2650mah 3S 25~50C Lipo Pack
2650.0,4.0,25.0,44.0,145.0,5.0,275.0,22.0,Turnigy nano-tech 2650mah 4S 25~50C Lipo Pack
2650.0,6.0,25.0,44.0,149.0,5.0,399.0,31.0,Turnigy nano-tech 2650mah 6S 25~50C Lipo Pack
3000.0,2.0,25.0,57.0,147.0,5.0,165.0,16.0,Turnigy nano-tech 3000mah 2S 25~50C Lipo Pack
3000.0,3.0,25.0,43.0,150.0,5.0,231.0,17.0,Turnigy nano-tech 3000mah 3S 25~50C Lipo Pack
3000.0,4.0,25.0,45.0,150.0,5.0,299.0,24.0,Turnigy nano-tech 3000mah 4S 25~50C Lipo Pack
3000.0,6.0,25.0,46.0,153.0,5.0,447.0,35.0,Turnigy nano-tech 3000mah 6S 25~50C Lipo Pack
3300.0,2.0,25.0,44.0,145.0,5.0,183.0,14.0,Turnigy nano-tech 3300mah 2S 25~50C Lipo Pack
3300.0,3.0,25.0,43.0,146.0,5.0,263.0,20.0,Turnigy nano-tech 3300mah 3S 25~50C Lipo Pack
3300.0,4.0,25.0,44.0,147.0,5.0,337.0,26.0,Turnigy nano-tech 3300mah 4S 25~50C Lipo Pack
3300.0,6.0,25.0,53.0,145.0,5.0,489.0,37.0,Turnigy nano-tech 3300mah 6S 25~50C Lipo Pack
4000.0,2.0,25.0,49.0,172.0,5.0,233.0,14.0,Turnigy nano-tech 4000mah 2S 25~50C Lipo Pack
4000.0,3.0,25.0,49.0,173.0,5.0,333.0,20.0,Turnigy nano-tech 4000mah 3S 25~50C Lipo Pack
4000.0,4.0,25.0,48.0,173.0,5.0,433.0,26.0,Turnigy nano-tech 4000mah 4S 25~50C Lipo Pack
4000.0,6.0,25.0,49.0,163.0,5.0,623.0,39.0,Turnigy nano-tech 4000mah 6S 25~50C Lipo Pack
4500.0,2.0,25.0,49.0,167.0,5.0,255.0,16.0,Turnigy nano-tech 4500mah 2S 25~50C Lipo Pack
4500.0,3.0,25.0,49.0,169.0,5.0,361.0,23.0,Turnigy nano-tech 4500mah 3S 25~50C Lipo Pack
4500.0,4.0,25.0,49.0,173.0,5.0,467.0,29.0,Turnigy nano-tech 4500mah 4S 25~50C Lipo Pack
4500.0,6.0,25.0,49.0,168.0,5.0,687.0,44.0,Turnigy nano-tech 4500mah 6S 25~50C Lipo Pack
5000.0,2.0,25.0,49.0,173.0,5.0,279.0,16.0,Turnigy nano-tech 5000mah 2S 25~50C Lipo Pack
5000.0,3.0,25.0,48.0,169.0,5.0,403.0,25.0,Turnigy nano-tech 5000mah 3S 25~50C Lipo Pack
5000.0,4.0,25.0,49.0,159.0,5.0,523.0,33.0,Turnigy nano-tech 5000mah 4S 25~50C Lipo Pack
5000.0,6.0,25.0,49.0,163.0,5.0,769.0,48.0,Turnigy nano-tech 5000mah 6S 25~50C Lipo Pack
6000.0,2.0,25.0,49.0,155.0,5.0,333.0,20.0,Turnigy nano-tech 6000mah 2S 25~50C Lipo Pack
6000.0,3.0,25.0,48.0,172.0,5.0,481.0,28.0,Turnigy nano-tech 6000mah 3S 25~50C Lipo Pack
6000.0,4.0,25.0,49.0,175.0,5.0,623.0,38.0,Turnigy nano-tech 6000mah 4S 25~50C Lipo Pack
6000.0,6.0,25.0,49.0,167.0,5.0,908.0,55.0,Turnigy nano-tech 6000mah 6S 25~50C Lipo Pack
1800.0,4.0,35.0,35.0,103.0,5.0,207.0,29.0,Turnigy nano-tech 1800mah 4S 35~70C Lipo Pack
2200.0,3.0,35.0,35.0,115.0,8.0,199.0,27.0,Turnigy nano-tech 2200mah 3S 35~70C Lipo Pack
2200.0,4.0,35.0,36.0,117.0,8.0,253.0,35.0,Turnigy nano-tech 2200mah 4S 35~70C Lipo Pack
2650.0,3.0,35.0,44.0,134.0,8.0,220.0,17.0,Turnigy nano-tech 2650mah 3S 35~70C Lipo Pack
2650.0,4.0,35.0,45.0,145.0,8.0,291.0,22.0,Turnigy nano-tech 2650mah 4S 35~70C Lipo Pack
2650.0,6.0,35.0,44.0,146.0,8.0,417.0,33.0,Turnigy nano-tech 2650mAh 6S 35~70C Lipo Pack
3300.0,3.0,35.0,44.0,133.0,5.0,270.0,21.0,Turnigy nano-tech 3300mah 3S 35~70C Lipo Pack
3300.0,4.0,35.0,45.0,145.0,8.0,361.0,26.0,Turnigy nano-tech 3300mah 4S 35~70C Lipo Pack
2200.0,3.0,45.0,36.0,112.0,10.0,201.0,26.0,Turnigy nano-tech 2200mah 3S 45~90C Lipo Pack
2200.0,4.0,45.0,35.0,109.0,10.0,257.0,33.0,Turnigy nano-tech 2200mah 4S 45~90C Lipo Pack
3300.0,3.0,45.0,44.0,146.0,10.0,317.0,24.0,Turnigy nano-tech 3300mah 3S 45~90C Lipo Pack
4000.0,3.0,45.0,62.0,164.0,10.0,375.0,23.0,Turnigy nano-tech 4000mah 3S 45~90C Lipo Pack
4000.0,4.0,45.0,49.0,168.0,10.0,485.0,29.0,Turnigy nano-tech 4000mah 4S 45~90C Lipo Pack
5000.0,3.0,45.0,48.0,150.0,10.0,425.0,27.0,Turnigy nano-tech 5000mah 3S 45~90C Lipo Pack
5000.0,4.0,45.0,50.0,166.0,10.0,585.0,37.0,Turnigy nano-tech 5000mah 4S 45~90C Lipo Pack
2100.0,3.0,35.0,34.0,113.0,2.0,197.0,25.0,Zippy Flightmax 2100mAh 3S 35C Lipo Pack
2800.0,3.0,30.0,37.0,116.0,2.0,231.0,27.0,ZIPPY Flightmax 2800mAh 3S1P 30C
2800.0,4.0,30.0,37.0,120.0,3.0,299.0,36.0,ZIPPY Flightmax 2800mAh 4S1P 30C
2800.0,6.0,30.0,38.0,121.0,2.0,437.0,52.0,ZIPPY Flightmax 2800mAh 6S1P 30C
4000.0,2.0,20.0,46.0,137.0,2.0,238.0,25.0,ZIPPY Flightmax 4000mAh 2S1P 20C hardcase pack
5000.0,2.0,20.0,46.0,137.0,2.0,279.0,25.0,ZIPPY Flightmax 5000mAh 2S1P 20C hardcase pack
4000.0,2.0,30.0,47.0,137.0,3.0,256.0,25.0,ZIPPY Flightmax 4000mAh 2S1P 30C hardcase pack
5000.0,2.0,30.0,47.0,138.0,3.0,301.0,25.0,ZIPPY Flightmax 5000mAh 2S1P 30C hardcase pack
4000.0,3.0,20.0,46.0,137.0,2.0,335.0,32.0,ZIPPY Flightmax 4000mAh 3S1P 20C Hardcase pack
5000.0,3.0,20.0,47.0,137.0,2.0,418.0,40.0,ZIPPY Flightmax 5000mAh 3S1P 20C hardcase pack
4000.0,3.0,30.0,47.0,137.0,3.0,365.0,39.0,ZIPPY Flightmax 4000mAh 3S1P 30C Hardcase pack
5000.0,3.0,30.0,46.0,137.0,3.0,429.0,40.0,ZIPPY Flightmax 5000mAh 3S1P 30C Hardcase pack
4500.0,10.0,25.0,53.0,305.0,5.0,1157.0,36.0,Turnigy nano-tech 4500mah 10S 25~50C Lipo Pack
4000.0,5.0,25.0,49.0,161.0,5.0,525.0,33.0,Turnigy nano-tech 4000mah 5S 25~50C Lipo Pack
4000.0,5.0,45.0,50.0,159.0,10.0,583.0,36.0,Turnigy nano-tech 4000mah 5S 45~90C Lipo Pack
4000.0,6.0,45.0,50.0,163.0,10.0,684.0,42.0,Turnigy nano-tech 4000mah 6S 45~90C Lipo Pack
5000.0,5.0,25.0,50.0,160.0,5.0,643.0,41.0,Turnigy nano-tech 5000mah 5S 25~50C Lipo Pack
4000.0,10.0,45.0,54.0,305.0,10.0,1169.0,36.0,Turnigy nano-tech 4000mah 10S 45~90C Lipo Pack
5000.0,5.0,45.0,50.0,161.0,10.0,715.0,44.0,Turnigy nano-tech 5000mah 5S 45~90C Lipo Pack
5000.0,6.0,45.0,49.0,157.0,10.0,813.0,50.0,Turnigy nano-tech 5000mah 6S 45~90C Lipo Pack
138.0,1.0,10.0,12.0,35.0,5.0,4.0,6.0,NE-B918 120mAh 1S 10C (V2) OEM Replacement for: NE4950001
150.0,1.0,10.0,12.0,39.0,5.0,4.0,6.0,Nine Eagles replacement High-Cap 150mAh 1S LiPo
1300.0,2.0,20.0,30.0,90.0,5.0,76.0,14.0,Turnigy 1300mAh 2S 20C Lipo Pack (Suit 1/18th Truck)
1700.0,2.0,20.0,26.5,91.0,5.0,92.0,18.0,"Turnigy 1700mAh 2S 20C Lipo Pack (Suits 1/16th Monster Beatle, SCT & Buggy)"
2200.0,3.0,30.0,35.0,105.0,2.0,195.0,26.0,B-Grade 2200mAh 3S 30C Lipoly Battery
2200.0,3.0,20.0,35.0,105.0,2.0,190.0,25.0,B-Grade 2200mAh 3S 20C Lipoly Battery
5000.0,3.0,40.0,50.0,148.0,2.0,445.0,28.0,B-Grade 5000mAh 3S 40C Lipoly Battery
5000.0,3.0,25.0,50.0,147.0,2.0,421.0,27.0,B-Grade 5000mAh 3S 25C Lipoly Battery
5000.0,3.0,30.0,50.0,147.0,2.0,422.0,27.0,B-Grade 5000mAh 3S 30C Lipoly Battery
5000.0,3.0,20.0,49.0,147.0,2.0,408.0,26.0,B-Grade 5000mAh 3S 20C Lipoly Battery
6000.0,2.0,25.0,45.0,132.0,2.0,371.0,29.0,Turnigy 6000mAh 2S2P 7.4v 25C hardcase pack
5300.0,2.0,25.0,46.0,138.0,5.0,325.0,25.0,Turnigy 5300mAh 2S2P 7.4v 25C hardcase pack
3800.0,2.0,25.0,45.0,136.0,5.0,235.0,22.0,Turnigy 3800mAh 2S1P 7.4v 25C hardcase pack
5000.0,4.0,20.0,45.0,139.0,5.0,528.0,44.0,Turnigy 5000mAh 4S1P 14.8v 20C hardcase pack
8000.0,2.0,30.0,69.0,166.0,5.0,415.0,15.0,ZIPPY Flightmax 8000mAh 2S1P 30C
8000.0,3.0,30.0,69.0,169.0,5.0,644.0,27.0,ZIPPY Flightmax 8000mAh 3S1P 30C
8000.0,4.0,30.0,69.0,166.0,5.0,845.0,35.0,ZIPPY Flightmax 8000mAh 4S1P 30C
8000.0,5.0,30.0,69.0,170.0,5.0,1054.0,44.0,ZIPPY Flightmax 8000mAh 5S1P 30C
8000.0,6.0,30.0,69.0,165.0,5.0,1220.0,52.0,ZIPPY Flightmax 8000mAh 6S1P 30C
2000.0,2.0,45.0,36.0,102.0,2.0,136.0,16.0,ZIPPY Flightmax 2000mAh 2S1P 45C
2000.0,4.0,45.0,36.0,103.0,2.0,250.0,32.0,ZIPPY Flightmax 2000mAh 4S1P 45C
2000.0,5.0,45.0,36.0,105.0,2.0,306.0,39.0,ZIPPY Flightmax 2000mAh 5S1P 45C
2200.0,2.0,45.0,37.0,101.0,2.0,148.0,18.0,ZIPPY Flightmax 2200mAh 2S1P 45C
2200.0,3.0,45.0,37.0,105.0,4.0,214.0,27.0,ZIPPY Flightmax 2200mAh 3S1P 45C
2200.0,4.0,45.0,37.0,105.0,2.0,279.0,37.0,ZIPPY Flightmax 2200mAh 4S1P 45C
2200.0,5.0,45.0,36.0,107.0,2.0,341.0,44.0,ZIPPY Flightmax 2200mAh 5S1P 45C
2650.0,3.0,45.0,44.0,136.0,2.0,249.0,18.0,ZIPPY Flightmax 2650mAh 3S1P 45C
2650.0,4.0,45.0,45.0,137.0,2.0,329.0,25.0,ZIPPY Flightmax 2650mAh 4S1P 45C
2650.0,5.0,45.0,45.0,139.0,2.0,410.0,32.0,ZIPPY Flightmax 2650mAh 5S1P 45C
2650.0,6.0,45.0,45.0,137.0,2.0,484.0,37.0,ZIPPY Flightmax 2650mAh 6S1P 45C
4000.0,3.0,45.0,53.0,148.0,2.0,372.0,23.0,ZIPPY Flightmax 4000mAh 3S1P 45C
4000.0,4.0,45.0,53.0,145.0,2.0,493.0,31.0,ZIPPY Flightmax 4000mAh 4S1P 45C
4000.0,5.0,45.0,53.0,146.0,2.0,601.0,39.0,ZIPPY Flightmax 4000mAh 5S1P 45C
4000.0,6.0,45.0,53.0,145.0,2.0,730.0,46.0,ZIPPY Flightmax 4000mAh 6S1P 45C
4500.0,3.0,45.0,52.0,146.0,2.0,403.0,25.0,ZIPPY Flightmax 4500mAh 3S1P 45C
4500.0,4.0,45.0,52.0,146.0,2.0,527.0,34.0,ZIPPY Flightmax 4500mAh 4S1P 45C
4500.0,5.0,45.0,52.0,145.0,2.0,653.0,42.0,ZIPPY Flightmax 4500mAh 5S1P 45C
4500.0,6.0,45.0,53.0,145.0,2.0,789.0,50.0,ZIPPY Flightmax 4500mAh 6S1P 45C
5000.0,2.0,2.0,52.0,143.0,2.0,308.0,19.0,ZIPPY Flightmax 5000mAh 2S1P 45C
5000.0,3.0,45.0,52.0,145.0,2.0,462.0,28.0,ZIPPY Flightmax 5000mAh 3S1P 45C
5000.0,4.0,45.0,52.0,142.0,2.0,596.0,8.0,ZIPPY Flightmax 5000mAh 4S1P 45C
5000.0,5.0,45.0,52.0,148.0,2.0,732.0,47.0,ZIPPY Flightmax 5000mAh 5S1P 45C
5000.0,6.0,45.0,52.0,144.0,2.0,888.0,58.0,ZIPPY Flightmax 5000mAh 6S1P 45C
2650.0,3.0,1.0,30.0,98.0,1.0,157.0,27.0,Turnigy 2650mAh 3S 1C LLF Tx Pack (Futaba/JR)
1600.0,2.0,20.0,43.0,69.0,4.0,92.0,16.0,Turnigy 1600mAh 2S 20C Losi Mini SCT Pack
3300.0,2.0,35.0,43.0,132.0,8.0,191.0,15.0,Turnigy nano-tech 3300mah 2S 35~70C Lipo Pack
3300.0,6.0,35.0,44.0,136.0,8.0,522.0,43.0,Turnigy nano-tech 3300mah 6S 35~70C Lipo Pack
4000.0,2.0,35.0,49.0,152.0,8.0,234.0,14.0,Turnigy nano-tech 4000mah 2S 35~70C Lipo Pack
4000.0,3.0,35.0,49.0,152.0,8.0,335.0,21.0,Turnigy nano-tech 4000mah 3S 35~70C Lipo Pack
4000.0,4.0,35.0,49.0,155.0,8.0,427.0,27.0,Turnigy nano-tech 4000mah 4S 35~70C Lipo Pack
4000.0,5.0,35.0,49.0,154.0,8.0,537.0,34.0,Turnigy nano-tech 4000mah 5S 35~70C Lipo Pack
4000.0,6.0,35.0,49.0,153.0,8.0,630.0,39.0,Turnigy nano-tech 4000mah 6S 35~70C Lipo Pack
4000.0,10.0,35.0,52.0,302.0,8.0,1068.0,33.0,Turnigy nano-tech 4000mah 10S 35~70C Lipo Pack
4500.0,2.0,35.0,49.0,152.0,8.0,260.0,15.0,Turnigy nano-tech 4500mah 2S 35~70C Lipo Pack
4500.0,3.0,35.0,49.0,151.0,8.0,372.0,23.0,Turnigy nano-tech 4500mah 3S 35~70C Lipo Pack
4500.0,4.0,35.0,49.0,153.0,8.0,485.0,30.0,Turnigy nano-tech 4500mah 4S 35~70C Lipo Pack
4500.0,5.0,35.0,49.0,154.0,8.0,574.0,34.0,Turnigy nano-tech 4500mah 5S 35~70C Lipo Pack
4500.0,6.0,35.0,49.0,155.0,8.0,738.0,48.0,Turnigy nano-tech 4500mah 6S 35~70C Lipo Pack
4500.0,10.0,35.0,49.0,304.0,8.0,1227.0,37.0,Turnigy nano-tech 4500mah 10S 35~70C Lipo Pack
5000.0,2.0,35.0,49.0,150.0,8.0,286.0,17.0,Turnigy nano-tech 5000mah 2S 35~70C Lipo Pack
5000.0,3.0,35.0,49.0,150.0,8.0,409.0,26.0,Turnigy nano-tech 5000mah 3S 35~70C Lipo Pack
5000.0,4.0,35.0,50.0,154.0,8.0,531.0,33.0,Turnigy nano-tech 5000mah 4S 35~70C Lipo Pack
5000.0,5.0,35.0,49.0,154.0,8.0,659.0,41.0,Turnigy nano-tech 5000mah 5S 35~70C Lipo Pack
5000.0,6.0,35.0,50.0,154.0,8.0,786.0,49.0,Turnigy nano-tech 5000mah 6S 35~70C Lipo Pack
2650.0,6.0,45.0,44.0,135.0,10.0,427.0,33.0,Turnigy nano-tech 2650mah 6S 45~90C Lipo Pack
3300.0,2.0,45.0,44.0,133.0,10.0,209.0,16.0,Turnigy nano-tech 3300mah 2S 45~90C Lipo Pack
3300.0,6.0,45.0,45.0,135.0,10.0,565.0,44.0,Turnigy nano-tech 3300mah 6S 45~90C Lipo Pack
4000.0,2.0,45.0,48.0,152.0,10.0,254.0,15.0,Turnigy nano-tech 4000mah 2S 45~90C Lipo Pack
4500.0,2.0,45.0,49.0,154.0,10.0,273.0,16.0,Turnigy nano-tech 4500mah 2S 45~90C Lipo Pack
5000.0,2.0,45.0,49.0,152.0,10.0,279.0,17.0,Turnigy nano-tech 5000mah 2S 45~90C Lipo Pack
6000.0,2.0,65.0,46.0,138.0,10.0,313.0,25.0,Turnigy nano-tech 6000mah 2S2P 65~130C Hardcase Lipo Pack
5100.0,2.0,65.0,47.0,69.0,10.0,290.0,25.0,Turnigy nano-tech 5100mah 2S3P 65~135C Hardcase Lipo Saddle Pack
5600.0,1.0,65.0,47.0,93.0,10.0,152.0,19.0,Turnigy nano-tech 5600mah 1S2P 65~130C Hardcase Lipo Pack (ROAR APPROVED)
5600.0,2.0,50.0,47.0,138.0,8.0,294.0,25.0,Turnigy nano-tech 5600mah 2S2P 50~100C Hardcase Lipo Pack (ROAR APPROVED)
5300.0,2.0,50.0,47.0,138.0,8.0,295.0,25.0,Turnigy nano-tech 5300mah 2S2P 50~100C Hardcase Lipo Pack
4850.0,2.0,50.0,47.0,69.0,8.0,290.0,25.0,Turnigy nano-tech 4850mah 2S3P 50~100C Hardcase Lipo Saddle Pack (ROAR APPROVED)
5000.0,1.0,50.0,47.0,93.0,8.0,148.0,19.0,Turnigy nano-tech 5000mah 1S2P 50~100C Hardcase Lipo Pack (ROAR APPROVED)
5800.0,2.0,30.0,46.0,138.0,5.0,296.0,25.0,Turnigy nano-tech 5800mah 2S2P 30~60C Hardcase Lipo Pack (ROAR APPROVED)
5300.0,2.0,30.0,46.0,138.0,5.0,271.0,25.0,Turnigy nano-tech 5300mah 2S2P 30~60C Hardcase Lipo Pack (ROAR APPROVED)
5000.0,2.0,30.0,47.0,70.0,5.0,285.0,25.0,Turnigy nano-tech 5000mah 2S3P 30~60C Hardcase Saddle Lipo Pack (ROAR APPROVED)
1200.0,2.0,15.0,20.0,127.0,5.0,64.0,12.0,Turnigy nano-tech 1200mah 2S 15~25C Lipo AIRSOFT Pack
1200.0,3.0,15.0,17.0,128.0,5.0,94.0,20.0,Turnigy nano-tech 1200mah 3S 15~25C Lipo AIRSOFT Pack
1200.0,2.0,15.0,20.0,125.0,5.0,68.0,6.0,Turnigy nano-tech 1200mah 2S 15~25C Lipo AIRSOFT Pack
1200.0,3.0,15.0,21.0,125.0,5.0,99.0,6.0,Turnigy nano-tech 1200mah 3S 15~25C Lipo AIRSOFT Pack
1400.0,2.0,15.0,22.0,126.0,5.0,76.0,13.0,Turnigy nano-tech 1400mah 2S 15~25C Lipo AIRSOFT Pack
1400.0,3.0,15.0,21.0,127.0,5.0,110.0,20.0,Turnigy nano-tech 1400mah 3S 15~25C Lipo AIRSOFT Pack
1400.0,2.0,15.0,21.0,125.0,5.0,79.0,7.0,Turnigy nano-tech 1400mah 2S 15~25C Lipo AIRSOFT Pack
1400.0,3.0,15.0,20.0,128.0,5.0,115.0,7.0,Turnigy nano-tech 1400mah 3S 15~25C Lipo AIRSOFT Pack
2000.0,2.0,15.0,21.0,127.0,5.0,106.0,19.0,Turnigy nano-tech 2000mah 2S 15~25C Lipo AIRSOFT Pack
2000.0,3.0,15.0,21.0,126.0,5.0,155.0,29.0,Turnigy nano-tech 2000mah 3S 15~25C Lipo AIRSOFT Pack
2000.0,2.0,15.0,21.0,125.0,5.0,109.0,10.0,Turnigy nano-tech 2000mah 2S 15~25C Lipo AIRSOFT Pack
2000.0,3.0,15.0,20.0,125.0,5.0,162.0,10.0,Turnigy nano-tech 2000mah 3S 15~25C Lipo AIRSOFT Pack
1300.0,2.0,25.0,18.0,168.0,5.0,79.0,12.0,Turnigy nano-tech 1300mah 2S 25~50C Lipo AIRSOFT Pack
1300.0,3.0,25.0,18.0,168.0,5.0,113.0,18.0,Turnigy nano-tech 1300mah 3S 25~50C Lipo AIRSOFT Pack
1300.0,2.0,25.0,18.0,166.0,5.0,80.0,7.0,Turnigy nano-tech 1300mah 2S 25~50C Lipo AIRSOFT Pack
1300.0,3.0,25.0,18.0,167.0,5.0,122.0,7.0,Turnigy nano-tech 1300mah 3S 25~50C Lipo AIRSOFT Pack
1800.0,2.0,20.0,34.0,103.0,5.0,100.0,9.0,Turnigy nano-tech 1800mah 2S 20~40C Lipo AIRSOFT Pack
1800.0,3.0,20.0,20.0,105.0,5.0,148.0,35.0,Turnigy nano-tech 1800mah 3S 20~40C Lipo AIRSOFT Pack
1800.0,2.0,20.0,35.0,99.0,5.0,103.0,7.0,Turnigy nano-tech 1800mah 2S 20~40C Lipo AIRSOFT Pack
1800.0,3.0,20.0,7.0,103.0,5.0,150.0,35.0,Turnigy nano-tech 1800mah 3S 20~40C Lipo AIRSOFT Pack
1800.0,2.0,25.0,13.0,103.0,5.0,100.0,35.0,Turnigy nano-tech 1800mah 2S 25~50C Lipo AIRSOFT Pack
1800.0,3.0,25.0,20.0,103.0,5.0,147.0,35.0,Turnigy nano-tech 1800mah 3S 25~50C Lipo AIRSOFT Pack
1800.0,2.0,25.0,35.0,100.0,5.0,103.0,7.0,Turnigy nano-tech 1800mah 2S 25~50C Lipo AIRSOFT Pack
1800.0,3.0,25.0,35.0,101.0,5.0,152.0,7.0,Turnigy nano-tech 1800mah 3S 25~50C Lipo AIRSOFT Pack
6000.0,2.0,25.0,50.0,143.0,3.0,415.0,34.0,Turnigy 6000mAh 2S2P 7.4v 25C hardcase pack
4500.0,3.0,45.0,49.0,152.0,10.0,391.0,24.0,Turnigy nano-tech 4500mah 3S 45~90C Lipo Pack
4500.0,4.0,45.0,49.0,153.0,10.0,513.0,32.0,Turnigy nano-tech 4500mah 4S 45~90C Lipo Pack
4500.0,5.0,45.0,49.0,154.0,10.0,631.0,39.0,Turnigy nano-tech 4500mah 5S 45~90C Lipo Pack
4500.0,6.0,45.0,49.0,154.0,10.0,750.0,47.0,Turnigy nano-tech 4500mah 6S 45~90C Lipo Pack
4500.0,10.0,45.0,54.0,300.0,10.0,1264.0,40.0,Turnigy nano-tech 4500mah 10S 45~90C Lipo Pack
300.0,1.0,35.0,19.0,48.0,5.0,7.0,7.0,Turnigy nano-tech 300mah 1S 35c Lipo Pack (Suits FBL100 and Blade mCPx)
850.0,4.0,25.0,31.0,56.0,5.0,94.0,30.0,Turnigy nano-tech 850mah 4S 25~50C Lipo Pack
1000.0,4.0,25.0,34.0,71.0,5.0,110.0,22.0,Turnigy nano-tech 1000mah 4S 25~50C Lipo Pack
1300.0,4.0,25.0,35.0,72.0,5.0,145.0,30.0,Turnigy nano-tech 1300mAh 4S 25~50C Lipo Pack
850.0,3.0,45.0,31.0,55.0,10.0,73.0,25.0,Turnigy nano-tech 850mAh 3S 45~90C Lipo Pack
850.0,4.0,45.0,31.0,56.0,10.0,99.0,33.0,Turnigy nano-tech 850mAh 4S 45~90C Lipo Pack
1000.0,3.0,45.0,35.0,74.0,10.0,97.0,19.0,Turnigy nano-tech 1000mAh 3S 45~90C Lipo Pack
1000.0,4.0,45.0,35.0,73.0,10.0,124.0,25.0,Turnigy nano-tech 1000mAh 4S 45~90C Lipo Pack
1300.0,3.0,45.0,35.0,72.0,10.0,119.0,23.0,Turnigy nano-tech 1300mAh 3S 45~90C Lipo Pack
1300.0,4.0,45.0,35.0,73.0,10.0,155.0,31.0,Turnigy nano-tech 1300mAh 4S 45~90C Lipo Pack
8000.0,5.0,25.0,45.0,194.0,5.0,924.0,47.0,Turnigy nano-tech 8000mAh 5S 25~50C Lipo Pack
8000.0,6.0,25.0,50.0,195.0,5.0,1105.0,55.0,Turnigy nano-tech 8000mAh 6S 25~50C Lipo Pack
1000.0,1.0,20.0,34.0,63.0,2.0,26.0,6.0,Turnigy 1000mAh 1S 20C Lipoly (Single Cell)
2200.0,1.0,20.0,34.0,97.0,2.0,55.0,8.0,Turnigy 2200mAh 1S 20C Lipoly (Single Cell)
2200.0,1.0,40.0,34.0,99.0,2.0,58.0,8.0,Turnigy 2200mAh 1S 40C Lipoly (Single Cell)
5000.0,1.0,20.0,42.0,128.0,2.0,114.0,10.0,Turnigy 5000mAh 1S 20C Lipoly (Single Cell)
5000.0,1.0,40.0,50.0,135.0,2.0,130.0,9.0,Turnigy 5000mAh 1S 40C Lipoly (Single Cell)
5800.0,1.0,25.0,50.0,136.0,2.0,143.0,10.0,Turnigy 5800mAh 1S 25C Lipoly (Single Cell)
5400.0,2.0,35.0,46.0,138.0,1.0,306.0,25.0,ZIPPY Flightmax 5400mah 2S2P 35C Hardcase Car Lipoly
5400.0,2.0,50.0,46.0,138.0,1.0,283.0,25.0,ZIPPY Flightmax 5400mah 2S2P 50C Hardcase Car Lipoly
5700.0,2.0,50.0,46.0,138.0,1.0,324.0,25.0,ZIPPY Flightmax 5700mah 2S2P 50C Hardcase Car Lipoly
6000.0,2.0,50.0,46.0,138.0,1.0,309.0,25.0,ZIPPY Flightmax 6000mah 2S2P 50C Hardcase Car Lipoly
6000.0,2.0,35.0,46.0,138.0,1.0,313.0,25.0,ZIPPY Flightmax 6000mah 2S2P 35C Hardcase Car Lipoly
5900.0,2.0,60.0,46.0,138.0,1.0,320.0,25.0,ZIPPY Flightmax 5900mah 2S2P 60C Hardcase Car Lipoly
130.0,1.0,25.0,7.0,40.0,10.0,4.0,11.0,Turnigy nano-tech 130mah 1S 25C Lipo Pack (Nine Eagles style - T1 Single Rail for 2010plus)
130.0,1.0,25.0,7.0,39.0,10.0,4.0,11.0,Turnigy nano-tech 130mah 1S 25C Lipo Pack (Nine Eagles style - T2 Twin Rail for older models)
160.0,1.0,25.0,6.0,46.0,10.0,5.0,10.0,Turnigy nano-tech 160mah 1S 25C Lipo Pack (Nine Eagles style - T2 Twin Rail for older models)
800.0,2.0,30.0,30.0,56.0,2.0,62.0,17.0,Turnigy 800mAh 2S 30C Lipo Pack
800.0,3.0,30.0,30.0,60.0,2.0,88.0,25.0,Turnigy 800mAh 3S 30C Lipo Pack
800.0,2.0,35.0,30.0,58.0,2.0,63.0,17.0,Turnigy 800mAh 2S 35C Lipo Pack
800.0,3.0,35.0,30.0,58.0,2.0,85.0,25.0,Turnigy 800mAh 3S 35C Lipo Pack
800.0,2.0,40.0,30.0,57.0,2.0,64.0,17.0,Turnigy 800mAh 2S 40C Lipo Pack
800.0,3.0,40.0,30.0,60.0,2.0,90.0,25.0,Turnigy 800mAh 3S 40C Lipo Pack
6100.0,3.0,20.0,47.5,164.0,2.0,427.0,30.0,Polyquest 6100mAh 3S1P LP3 20C Aircraft Lipo Pack
350.0,1.0,65.0,30.0,52.0,8.0,15.0,5.0,Turnigy nano-tech 350mah 1S 65~130C Lipo Pack
350.0,2.0,65.0,30.0,54.0,8.0,34.0,10.0,Turnigy nano-tech 350mah 2S 65~130C Lipo Pack
350.0,3.0,65.0,30.0,56.0,8.0,46.0,14.0,Turnigy nano-tech 350mah 3S 65~130C Lipo Pack
1800.0,2.0,65.0,35.0,104.0,8.0,124.0,16.0,Turnigy nano-tech 1800mah 2S 65~130C Lipo Pack
1800.0,3.0,65.0,35.0,103.0,8.0,180.0,25.0,Turnigy nano-tech 1800mah 3S 65~130C Lipo Pack
1800.0,4.0,65.0,35.0,103.0,8.0,228.0,31.0,Turnigy nano-tech 1800mah 4S 65~130C Lipo Pack
2250.0,2.0,65.0,35.0,103.0,8.0,142.0,19.0,Turnigy nano-tech 2250mah 2S 65~130C Lipo Pack
2250.0,3.0,65.0,35.0,104.0,8.0,207.0,27.0,Turnigy nano-tech 2250mah 3S 65~130C Lipo Pack
2250.0,4.0,65.0,35.0,103.0,8.0,268.0,36.0,Turnigy nano-tech 2250mah 4S 65~130C Lipo Pack
2700.0,2.0,65.0,43.0,133.0,8.0,177.0,14.0,Turnigy nano-tech 2700mah 2S 65~130C Lipo Pack
2700.0,3.0,65.0,43.0,134.0,8.0,252.0,20.0,Turnigy nano-tech 2700mah 3S 65~130C Lipo Pack
2700.0,4.0,65.0,44.0,134.0,8.0,332.0,27.0,Turnigy nano-tech 2700mah 4S 65~130C Lipo Pack
2700.0,5.0,65.0,43.0,135.0,8.0,404.0,34.0,Turnigy nano-tech 2700mah 5S 65~130C Lipo Pack
2700.0,6.0,65.0,43.0,135.0,8.0,483.0,40.0,Turnigy nano-tech 2700mah 6S 65~130C Lipo Pack
3300.0,2.0,65.0,43.0,132.0,8.0,220.0,17.0,Turnigy nano-tech 3300mah 2S 65~130C Lipo Pack
3300.0,3.0,65.0,44.0,133.0,8.0,311.0,24.0,Turnigy nano-tech 3300mah 3S 65~130C Lipo Pack
3300.0,4.0,65.0,43.0,134.0,8.0,409.0,32.0,Turnigy nano-tech 3300mah 4S 65~130C Lipo Pack
3300.0,5.0,65.0,44.0,135.0,8.0,500.0,40.0,Turnigy nano-tech 3300mah 5S 65~130C Lipo Pack
3300.0,6.0,65.0,44.0,134.0,8.0,595.0,49.0,Turnigy nano-tech 3300mah 6S 65~130C Lipo Pack
3300.0,10.0,65.0,44.0,265.0,8.0,1020.0,42.0,Turnigy nano-tech 3300mah 10S 65~130C Lipo Pack
3850.0,2.0,65.0,43.0,133.0,8.0,242.0,19.0,Turnigy nano-tech 3850mah 2S 65~130C Lipo Pack
3850.0,3.0,65.0,43.0,135.0,8.0,349.0,28.0,Turnigy nano-tech 3850mah 3S 65~130C Lipo Pack
3850.0,4.0,65.0,43.0,136.0,8.0,454.0,37.0,Turnigy nano-tech 3850mah 4S 65~130C Lipo Pack
3850.0,5.0,65.0,44.0,135.0,8.0,556.0,46.0,Turnigy nano-tech 3850mah 5S 65~130C Lipo Pack
3850.0,6.0,65.0,44.0,136.0,8.0,662.0,55.0,Turnigy nano-tech 3850mah 6S 65~130C Lipo Pack
3850.0,10.0,65.0,44.0,266.0,8.0,1136.0,46.0,Turnigy nano-tech 3850mah 10S 65~130C Lipo Pack
4400.0,2.0,65.0,48.0,151.0,8.0,278.0,17.0,Turnigy nano-tech 4400mah 2S 65~130C Lipo Pack
4400.0,3.0,65.0,48.0,150.0,8.0,399.0,25.0,Turnigy nano-tech 4400mah 3S 65~130C Lipo Pack
4400.0,4.0,65.0,49.0,153.0,8.0,527.0,33.0,Turnigy nano-tech 4400mah 4S 65~130C Lipo Pack
4400.0,5.0,65.0,49.0,154.0,8.0,650.0,41.0,Turnigy nano-tech 4400mah 5S 65~130C Lipo Pack
4400.0,6.0,65.0,49.0,154.0,8.0,763.0,49.0,Turnigy nano-tech 4400mah 6S 65~130C Lipo Pack
4400.0,10.0,65.0,49.0,300.0,8.0,1317.0,42.0,Turnigy nano-tech 4400mah 10S 65~130C Lipo Pack
5000.0,2.0,65.0,48.0,151.0,8.0,304.0,19.0,Turnigy nano-tech 5000mah 2S 65~130C Lipo Pack
5000.0,3.0,65.0,49.0,152.0,8.0,442.0,28.0,Turnigy nano-tech 5000mah 3S 65~130C Lipo Pack
5000.0,4.0,65.0,49.0,153.0,8.0,576.0,37.0,Turnigy nano-tech 5000mah 4S 65~130C Lipo Pack
5000.0,5.0,65.0,49.0,154.0,8.0,712.0,46.0,Turnigy nano-tech 5000mah 5S 65~130C Lipo Pack
5000.0,6.0,65.0,49.0,153.0,8.0,844.0,55.0,Turnigy nano-tech 5000mah 6S 65~130C Lipo Pack
5000.0,8.0,65.0,49.0,154.0,8.0,1106.0,72.0,Turnigy nano-tech 5000mah 8S 65~130C Lipo Pack
160.0,1.0,25.0,6.0,46.0,10.0,5.0,11.0,Turnigy nano-tech 160mah 1S 25C Lipo Pack (Nine Eagles style - T1 Single Rail for 2010plus)
160.0,1.0,25.0,7.0,39.0,10.0,4.0,11.0,Turnigy nano-tech 160mah 1S 25~40C Lipo Pack (Fits Align Trex 100)
120.0,2.0,25.0,7.5,33.0,5.0,9.0,20.0,Turnigy nano-tech 120mAh 2S 25C Lipo Pack (E-flite micro series compatible)
180.0,2.0,25.0,10.0,34.0,5.0,12.0,21.0,Turnigy nano-tech 180mAh 2S 25C Lipo Pack (E-flite micro series compatible)
4000.0,2.0,2.0,50.0,71.0,1.0,133.0,19.0,Turnigy 4000mAh Spektrum DX8 Intelligent Transmitter Pack.
220.0,1.0,0.0,20.0,31.0,0.0,6.0,7.0,HK189 / HK188 Battery 3.7V 220mAh
5800.0,1.0,60.0,46.0,92.0,1.0,177.0,19.0,ZIPPY Flightmax 5800mah 1S2P 60C Hardcase Car Lipoly
4200.0,2.0,40.0,47.0,138.0,8.0,230.0,23.0,Turnigy nano-tech 4200mah 2S2P 40~80C Hardcase Lipo Pack
1600.0,2.0,20.0,28.0,92.0,2.0,85.0,19.0,Turnigy 1600mAh 2S 20C Lipo Pack (Losi Mini Compatible)
300.0,1.0,35.0,17.0,43.0,2.0,8.0,6.0,Turnigy nano-tech 300mah 1S 35~70C Lipo Pack (Fits Nine Eagles Solo-Pro 100)
600.0,1.0,35.0,7.0,79.0,2.0,16.0,19.0,"Turnigy nano-tech 600mah 1S 35~70C Lipo Pack (Fits Nine Eagles Solo Pro 328, Eflite MQX, 120SR)"
750.0,1.0,35.0,24.0,43.0,2.0,18.0,9.0,Turnigy nano-tech 750mah 1S 35~70C Lipo Pack (Fits Nine Eagles Solo-Pro 180)
950.0,1.0,25.0,7.0,68.0,5.0,25.0,25.0,"Turnigy nano-tech 950mah 1S 25~50C Lipo Pack (Fits Walkera V120, X100)"
950.0,2.0,25.0,25.0,71.0,5.0,46.0,14.0,Turnigy nano-tech 950mah 2S 25~50C Lipo Pack
950.0,3.0,25.0,25.0,72.0,5.0,69.0,20.0,Turnigy nano-tech 950mah 3S 25~50C Lipo Pack
2200.0,2.0,40.0,34.0,87.0,10.0,120.0,19.0,Turnigy nano-tech 2200mah 2S 40~80C Lipo Pack (TRA2820 Traxxas 1/16 models)
1400.0,3.0,40.0,34.0,87.0,10.0,119.0,19.0,Turnigy nano-tech 1400mah 3S 40~80C Lipo Pack (TRA2823 Traxxas 1/16 models)
6600.0,2.0,65.0,46.0,138.0,10.0,320.0,25.0,Turnigy nano-tech 6600mah 2S2P 65~130C Hardcase Lipo Pack
1300.0,6.0,25.0,35.0,76.0,2.0,195.0,42.0,Turnigy 1300mAh 6S 25C Lipo Pack (450 helicopter HK/Trex/Rave/E4 etc)
1300.0,6.0,35.0,35.0,76.0,2.0,218.0,46.0,Turnigy 1300mAh 6S 35C Lipo Pack (450 helicopter HK/Trex/Rave/E4 etc)
4000.0,2.0,25.0,47.0,138.0,2.0,235.0,23.0,ZIPPY Flightmax 4000mAh 2S1P 25C Car Lipoly (ROAR APPROVED)
5000.0,2.0,30.0,47.0,137.0,2.0,278.0,24.0,ZIPPY Flightmax 5000mAh 2S1P 30C hardcase pack (ROAR APPROVED)
5200.0,2.0,30.0,46.0,137.0,2.0,314.0,25.0,ZIPPY Flightmax 5200mAh 2S2P 30C hardcase pack (ROAR APPROVED)
5000.0,2.0,20.0,45.0,135.0,5.0,276.0,22.0,Turnigy 5000mAh 2S1P 20C hardcase pack (ROAR APPROVED)
5200.0,2.0,30.0,46.0,137.0,5.0,336.0,25.0,Turnigy 5200mAh 2S 30C Hard-Case Car Lipo Pack (ROAR APPROVED)
4500.0,4.0,30.0,45.0,138.0,2.0,528.0,44.0,Turnigy 4500mAh 4S 30C hardcase pack (ROAR APPROVED)
4000.0,2.0,30.0,45.0,135.0,2.0,254.0,21.0,Turnigy 4000mAh 2S 30C hardcase pack (ROAR APPROVED)
5000.0,2.0,30.0,46.0,137.0,2.0,340.0,25.0,Turnigy 5000mAh 2S1P 7.4v 30C hardcase pack (ROAR APPROVED)
5000.0,2.0,40.0,46.0,137.0,5.0,326.0,25.0,Turnigy 5000mAh 2S2P 40C hardcase pack (ROAR APPROVED)
500.0,2.0,25.0,30.0,56.0,5.0,29.0,9.0,ZIPPY Compact 500mAh 2S 25C Lipo Pack
500.0,3.0,25.0,30.0,56.0,5.0,42.0,13.0,ZIPPY Compact 500mAh 3S 25C Lipo Pack
850.0,2.0,25.0,30.0,55.0,5.0,44.0,14.0,ZIPPY Compact 850mAh 2S 25C Lipo Pack
850.0,3.0,25.0,31.0,59.0,5.0,64.0,20.0,ZIPPY Compact 850mAh 3S 25C Lipo Pack
1000.0,2.0,25.0,10.0,75.0,5.0,58.0,34.0,ZIPPY Compact 1000mAh 2S 25C Lipo Pack
1000.0,3.0,25.0,15.0,76.0,5.0,82.0,34.0,ZIPPY Compact 1000mAh 3S 25C Lipo Pack
1000.0,4.0,25.0,20.0,76.0,5.0,105.0,35.0,ZIPPY Compact 1000mAh 4S 25C Lipo Pack
1300.0,2.0,25.0,13.0,74.0,5.0,71.0,34.0,ZIPPY Compact 1300mAh 2S 25C Lipo Pack
1300.0,3.0,25.0,19.0,76.0,5.0,101.0,35.0,ZIPPY Compact 1300mAh 3S 25C Lipo Pack
1300.0,4.0,25.0,26.0,75.0,5.0,132.0,34.0,ZIPPY Compact 1300mAh 4S 25C Lipo Pack
1500.0,3.0,25.0,14.0,106.0,5.0,113.0,35.0,ZIPPY Compact 1500mAh 3S 25C Lipo Pack
1500.0,4.0,25.0,20.0,107.0,5.0,148.0,34.0,ZIPPY Compact 1500mAh 4S 25C Lipo Pack
1800.0,2.0,25.0,12.0,106.0,5.0,93.0,34.0,ZIPPY Compact 1800mAh 2S 25C Lipo Pack
1800.0,3.0,25.0,17.0,106.0,5.0,134.0,34.0,ZIPPY Compact 1800mAh 3S 25C Lipo Pack
1800.0,4.0,25.0,23.0,106.0,5.0,175.0,34.0,ZIPPY Compact 1800mAh 4S 25C Lipo Pack
2200.0,2.0,25.0,35.0,104.0,5.0,113.0,14.0,ZIPPY Compact 2200mAh 2S 25C Lipo Pack
2200.0,3.0,25.0,34.0,107.0,5.0,163.0,21.0,ZIPPY Compact 2200mAh 3S 25C Lipo Pack
2200.0,4.0,25.0,28.0,107.0,5.0,210.0,34.0,ZIPPY Compact 2200mAh 4S 25C Lipo Pack
2700.0,2.0,25.0,10.0,136.0,5.0,138.0,44.0,ZIPPY Compact 2700mAh 2S 25C Lipo Pack
2700.0,3.0,25.0,15.0,137.0,5.0,199.0,44.0,ZIPPY Compact 2700mAh 3S 25C Lipo Pack
2700.0,4.0,25.0,44.0,137.0,5.0,278.0,23.0,ZIPPY Compact 2700mAh 4S 25C Lipo Pack
2700.0,5.0,25.0,24.0,136.0,5.0,320.0,44.0,ZIPPY Compact 2700mAh 5S 25C Lipo Pack
2700.0,6.0,25.0,30.0,137.0,5.0,380.0,45.0,ZIPPY Compact 2700mAh 6S 25C Lipo Pack
2700.0,6.0,25.0,51.0,275.0,5.0,445.0,16.0,ZIPPY Compact 2700mAh 6S 25C Long Lipo Pack
3700.0,2.0,25.0,44.0,146.0,5.0,182.0,13.0,ZIPPY Compact 3700mAh 2S 25C Lipo Pack
3700.0,3.0,25.0,19.0,146.0,5.0,264.0,43.0,ZIPPY Compact 3700mAh 3S 25C Lipo Pack
3700.0,4.0,25.0,33.0,148.0,5.0,357.0,44.0,ZIPPY Compact 3700mAh 4S 25C Lipo Pack
3700.0,5.0,25.0,43.0,146.0,5.0,424.0,31.0,ZIPPY Compact 3700mAh 5S 25C Lipo Pack
3700.0,6.0,25.0,43.0,148.0,5.0,519.0,37.0,ZIPPY Compact 3700mAh 6S 25C Lipo Pack
4000.0,2.0,25.0,14.0,145.0,5.0,197.0,43.0,ZIPPY Compact 4000mAh 2S 25C Lipo Pack
4000.0,3.0,25.0,43.0,148.0,5.0,286.0,20.0,ZIPPY Compact 4000mAh 3S 25C Lipo Pack
4000.0,4.0,25.0,44.0,147.0,5.0,370.0,27.0,ZIPPY Compact 4000mAh 4S 25C Lipo Pack
4000.0,5.0,25.0,34.0,147.0,5.0,460.0,44.0,ZIPPY Compact 4000mAh 5S 25C Lipo Pack
4000.0,6.0,25.0,44.0,148.0,5.0,557.0,40.0,ZIPPY Compact 4000mAh 6S 25C Lipo Pack
4000.0,7.0,25.0,44.0,148.0,5.0,641.0,46.0,ZIPPY Compact 4000mAh 7S 25C Lipo Pack
4000.0,10.0,25.0,44.0,150.0,5.0,908.0,66.0,ZIPPY Compact 4000mAh 10S 25C Lipo Pack
4000.0,10.0,25.0,54.0,295.0,5.0,997.0,34.0,ZIPPY Compact 4000mAh 10S 25C Long Lipo Pack
5000.0,2.0,25.0,14.0,162.0,5.0,237.0,46.0, ZIPPY Compact 5000mAh 2S 25C Lipo Pack
5000.0,3.0,25.0,21.0,162.0,5.0,354.0,46.0,ZIPPY Compact 5000mAh 3S 25C Lipo Pack
5000.0,4.0,25.0,46.0,162.0,5.0,488.0,29.0,ZIPPY Compact 5000mAh 4S 25C Lipo Pack
5000.0,5.0,25.0,38.0,163.0,5.0,590.0,46.0,ZIPPY Compact 5000mAh 5S 25C Lipo Pack
5000.0,6.0,25.0,46.0,161.0,5.0,703.0,45.0,ZIPPY Compact 5000mAh 6S 25C Lipo Pack
5000.0,7.0,25.0,46.0,158.0,5.0,818.0,53.0,ZIPPY Compact 5000mAh 7S 25C Lipo Pack
5000.0,8.0,25.0,46.0,160.0,5.0,937.0,59.0,ZIPPY Compact 5000mAh 8S 25C Lipo Pack
5000.0,10.0,25.0,46.0,163.0,5.0,1161.0,74.0,ZIPPY Compact 5000mAh 10S 25C Lipo Pack
5000.0,10.0,25.0,52.0,325.0,5.0,1236.0,37.0,ZIPPY Compact 5000mAh 10S 25C Lipo Pack
5800.0,2.0,25.0,16.0,159.0,5.0,273.0,45.0,ZIPPY Compact 5800mAh 2S 25C Lipo Pack
5800.0,3.0,25.0,45.0,163.0,5.0,433.0,27.0,ZIPPY Compact 5800mAh 3S 25C Lipo Pack
5800.0,4.0,25.0,46.0,162.0,5.0,569.0,40.0,ZIPPY Compact 5800mAh 4S 25C Lipo Pack
5800.0,5.0,25.0,45.0,160.0,5.0,655.0,41.0,ZIPPY Compact 5800mAh 5S 25C Lipo Pack
5800.0,6.0,25.0,46.0,163.0,5.0,843.0,53.0,ZIPPY Compact 5800mAh 6S 25C Lipo Pack
5800.0,7.0,25.0,46.0,160.0,5.0,913.0,57.0,ZIPPY Compact 5800mAh 7S 25C Lipo Pack
5800.0,8.0,25.0,46.0,167.0,5.0,1020.0,64.0,ZIPPY Compact 5800mAh 8S 25C Lipo Pack
5800.0,10.0,25.0,45.0,162.0,5.0,1283.0,82.0,ZIPPY Compact 5800mAh 10S 25C Lipo Pack
1000.0,3.0,35.0,35.0,76.0,5.0,92.0,17.0,ZIPPY Compact 1000mAh 3S 35C Lipo Pack
1000.0,4.0,35.0,35.0,76.0,5.0,119.0,23.0,ZIPPY Compact 1000mAh 4S 35C Lipo Pack
1600.0,4.0,35.0,34.0,106.0,5.0,178.0,23.0,ZIPPY Compact 1600mAh 4S 35C Lipo Pack
2200.0,2.0,35.0,35.0,111.0,5.0,125.0,15.0,ZIPPY Compact 2200mAh 2S 35C Lipo Pack
2200.0,3.0,35.0,34.0,114.0,5.0,181.0,21.0,ZIPPY Compact 2200mAh 3S 35C Lipo Pack
2200.0,4.0,35.0,35.0,113.0,5.0,242.0,28.0,ZIPPY Compact 2200mAh 4S 35C Lipo Pack
2700.0,2.0,35.0,44.0,137.0,5.0,151.0,11.0,ZIPPY Compact 2700mAh 2S 35C Lipo Pack
2700.0,3.0,35.0,44.0,139.0,5.0,222.0,16.0,ZIPPY Compact 2700mAh 3S 35C Lipo Pack
2700.0,4.0,35.0,44.0,137.0,5.0,284.0,21.0,ZIPPY Compact 2700mAh 4S 35C Lipo Pack
2700.0,5.0,35.0,45.0,139.0,5.0,357.0,27.0,ZIPPY Compact 2700mAh 5S 35C Lipo Pack
2700.0,6.0,35.0,45.0,138.0,5.0,430.0,32.0,ZIPPY Compact 2700mAh 6S 35C Lipo Pack
2700.0,8.0,35.0,44.0,140.0,5.0,558.0,43.0,ZIPPY Compact 2700mAh 8S 35C Lipo Pack
3300.0,2.0,35.0,13.0,146.0,5.0,193.0,43.0,ZIPPY Compact 3300mAh 2S 35C Lipo Pack
3300.0,3.0,35.0,43.0,149.0,5.0,277.0,19.0,ZIPPY Compact 3300mAh 3S 35C Lipo Pack
3300.0,4.0,35.0,44.0,145.0,5.0,350.0,25.0,ZIPPY Compact 3300mAh 4S 35C Lipo Pack
3300.0,5.0,35.0,44.0,148.0,5.0,433.0,32.0,ZIPPY Compact 3300mAh 5S 35C Lipo Pack
3300.0,6.0,35.0,37.0,148.0,5.0,521.0,44.0,ZIPPY Compact 3300mAh 6S 35C Lipo Pack
3300.0,10.0,35.0,45.0,150.0,5.0,845.0,61.0,ZIPPY Compact 3300mAh 10S 35C Lipo Pack
3700.0,3.0,35.0,43.0,145.0,5.0,297.0,21.0,ZIPPY Compact 3700mAh 3S 35C Lipo Pack
3700.0,4.0,35.0,44.0,147.0,5.0,393.0,27.0,ZIPPY Compact 3700mAh 4S 35C Lipo Pack
3700.0,5.0,35.0,44.0,148.0,5.0,487.0,35.0,ZIPPY Compact 3700mAh 5S 35C Lipo Pack
3700.0,6.0,35.0,44.0,147.0,5.0,593.0,45.0,ZIPPY Compact 3700mAh 6S 35C Lipo Pack
3700.0,8.0,35.0,44.0,149.0,5.0,765.0,57.0,ZIPPY Compact 3700mAh 8S 35C Lipo Pack
4500.0,2.0,35.0,45.0,161.0,5.0,249.0,15.0,ZIPPY Compact 4500mAh 2S 35C Lipo Pack
4500.0,3.0,35.0,45.0,163.0,5.0,360.0,22.0,ZIPPY Compact 4500mAh 3S 35C Lipo Pack
4500.0,4.0,35.0,46.0,163.0,5.0,466.0,29.0,ZIPPY Compact 4500mAh 4S 35C Lipo Pack
4500.0,5.0,35.0,36.0,164.0,5.0,581.0,45.0,ZIPPY Compact 4500mAh 5S 35C Lipo Pack
4500.0,6.0,35.0,46.0,163.0,5.0,696.0,44.0,ZIPPY Compact 4500mAh 6S 35C Lipo Pack
4500.0,7.0,35.0,45.0,166.0,5.0,809.0,50.0,ZIPPY Compact 4500mAh 7S 35C Lipo Pack
4500.0,8.0,35.0,45.0,168.0,5.0,911.0,58.0,ZIPPY Compact 4500mAh 8S 35C Lipo Pack
4500.0,10.0,35.0,45.0,163.0,5.0,1137.0,73.0,ZIPPY Compact 4500mAh 10S 35C Lipo Pack
4000.0,2.0,40.0,43.0,135.0,10.0,227.0,20.0,Turnigy nano-tech 4000mah 2S 40~80C Lipo Pack (TRA2841 Slash/Rustler/Bandit/Stampede compatible)
5800.0,2.0,40.0,43.0,135.0,10.0,308.0,24.0,Turnigy nano-tech 5800mah 2S 40~80C Lipo Pack (TRA2843 )
3300.0,3.0,40.0,44.0,135.0,10.0,264.0,21.0,Turnigy nano-tech 3300mah 3S 40~80C Lipo Pack (TRA2846 Slash/Rustler/Bandit/Stampede compatible)
4000.0,3.0,40.0,43.0,136.0,10.0,321.0,25.0,Turnigy nano-tech 4000mah 3S 40~80C Lipo Pack (TRA2849 Slash/Rustler/Bandit/Stampede compatible)
10000.0,2.0,40.0,43.0,137.0,10.0,499.0,41.0,Turnigy nano-tech 10000mah 2S 40~80C Lipo Pack (TRA2854 Stampede/Rustler/Bandit compatible)
6400.0,3.0,40.0,44.0,137.0,5.0,506.0,41.0,Turnigy nano-tech 6400mah 3S 40~80C Lipo Pack (TRA2857 Stampede/Rustler/Bandit compatible)
7600.0,2.0,40.0,45.0,154.0,10.0,377.0,27.0,Turnigy nano-tech 7600mah 2S 40~80C Lipo Pack (TRA2869 Summit/E-Revo/E-Maxx)
5000.0,3.0,40.0,44.0,154.0,10.0,404.0,27.0,Turnigy nano-tech 5000mah 3S 40~80C Lipo Pack (TRA2872 Slash/Slash 4x4)
12800.0,2.0,40.0,45.0,154.0,10.0,614.0,42.0,Turnigy nano-tech 12800mah 2S 40~80C Lipo Pack (TRA2875 Summit/E-Revo/E-Maxx compatible)
8400.0,3.0,40.0,45.0,157.0,10.0,641.0,45.0,Turnigy nano-tech 8400mah 3S 40~80C Lipo Pack (TRA2878 Slash VXL/Slash 4x4 compatible)
300.0,2.0,35.0,17.0,44.0,2.0,17.0,12.0,Turnigy nano-tech 300mah 2S 35~70C Lipo Pack
1300.0,6.0,45.0,35.0,75.0,10.0,223.0,47.0,Turnigy nano-tech 1300mah 6S 45~90C Lipo Pack (450 helicopter HK/Trex/Rave/E4 etc)
4200.0,2.0,65.0,46.0,96.0,5.0,190.0,25.0,Turnigy nano-tech Shorty 4200mah 2S2P 65~130C Hardcase Lipo Pack (ROAR APPROVED)
180.0,2.0,25.0,20.0,35.0,2.0,13.0,10.0,Turnigy nano-tech 180mah 2S 25~40C Lipo Pack
80.0,1.0,15.0,7.0,30.0,5.0,2.0,7.0,Turnigy nano-tech 80mAh 1s 15c Round Lipo
90.0,1.0,15.0,6.0,36.0,5.0,3.0,6.0,Turnigy nano-tech 90mah 1S 15C Round Lipo
130.0,1.0,15.0,7.0,39.0,5.0,4.0,7.0,Turnigy nano-tech 130mAh 1s 15c Round Lipo
200.0,1.0,15.0,7.0,52.0,5.0,5.0,7.0,Turnigy nano-tech 200mah 1S 15C Round Lipo
180.0,1.0,15.0,8.0,38.0,5.0,4.0,8.0, Turnigy nano-tech 180mAh 15c Round Lipo
270.0,1.0,15.0,8.0,56.0,5.0,6.0,8.0,Turnigy nano-tech 270mah 1S 15C Round Lipo
350.0,1.0,15.0,8.0,70.0,5.0,10.0,8.0,Turnigy nano-tech 350mah 1S 15C Round Lipo
650.0,1.0,15.0,13.0,41.0,5.0,13.0,13.0,Turnigy nano-tech 650mAh 1S 15c Round Lipo
900.0,1.0,15.0,12.0,58.0,5.0,18.0,12.0,Turnigy nano-tech 900mah 1S 15C Round Lipo
1000.0,1.0,15.0,13.0,70.0,5.0,20.0,12.0,Turnigy nano-tech 1000mah 1S 15C Round Lipo
1200.0,1.0,15.0,15.0,58.0,5.0,23.0,15.0,Turnigy nano-tech 1200mah 1S 15C Round Lipo
180.0,3.0,25.0,20.0,35.0,2.0,19.0,15.0,Turnigy nano-tech 180mah 3S 25~40C Lipo Pack
2500.0,3.0,5.0,30.0,95.0,5.0,147.0,24.0,Turnigy nano-tech 2500mAh 3S1P 5~10C Transmitter Lipo Pack
2500.0,3.0,5.0,50.0,106.0,2.0,155.0,14.0,Turnigy nano-tech 2500mAh 3S1P 5~10C Transmitter Lipo Pack
1300.0,2.0,20.0,34.0,71.0,5.0,67.0,14.0,Turnigy nano-tech 1300mAh 2S1P 20~40C Lipo Receiver Pack
1500.0,2.0,20.0,34.0,87.0,5.0,75.0,13.0,Turnigy nano-tech 1500mAh 2S1P 20~40C Lipo Receiver Pack
2000.0,2.0,20.0,34.0,87.0,5.0,98.0,17.0,Turnigy nano-tech 2000mAh 2S1P 20~40C Lipo Receiver Pack
3000.0,2.0,20.0,34.0,88.0,5.0,146.0,25.0,Turnigy nano-tech 3000mAh 2S2P 20~40C Lipo Receiver Pack
1300.0,6.0,25.0,34.0,104.0,5.0,206.0,29.0,Turnigy nano-tech 1300mAh 6S1P 25~50C Lipo Pack (450 helicopter HK/Trex/Rave/E4 etc)
1300.0,6.0,35.0,34.0,106.0,8.0,215.0,29.0,Turnigy nano-tech 1300mAh 6S1P 35~70C Lipo Pack (450 helicopter HK/Trex/Rave/E4 etc)
2650.0,6.0,65.0,44.0,135.0,8.0,465.0,38.0,Turnigy nano-tech A-SPEC 2650mah 6S 65~130C Lipo Pack
4000.0,10.0,65.0,48.0,303.0,8.0,1177.0,37.0,Turnigy nano-tech A-SPEC 4000mah 10S 65~130C Lipo Pack
4500.0,5.0,65.0,49.0,153.0,8.0,637.0,40.0,Turnigy nano-tech A-SPEC 4500mah 5S 65~130C Lipo Pack
4500.0,10.0,65.0,52.0,297.0,8.0,1305.0,41.0,Turnigy nano-tech A-SPEC 4500mah 10S 65~130C Lipo Pack
6200.0,2.0,65.0,47.0,138.0,8.0,301.0,25.0,Turnigy nano-tech A-SPEC 6200mah 2S 65~130C Hardcase Lipo Pack
4200.0,2.0,65.0,46.0,95.0,8.0,195.0,25.0,Turnigy nano-tech A-SPEC 4200mah 2S 65~130C Hardcase Shorty Lipo Pack
6000.0,1.0,65.0,47.0,93.0,8.0,143.0,18.0,Turnigy nano-tech A-SPEC 6000mah 1S 65~130C Hardcase Lipo Pack
5600.0,2.0,65.0,46.0,69.0,8.0,132.0,25.0,Turnigy nano-tech A-SPEC 5600mah 2S 65~130C Hardcase Lipo Saddle Pack
6600.0,2.0,65.0,43.0,150.0,8.0,274.0,20.0,Turnigy nano-tech A-SPEC 6600mah 2S 65~130C Lipo Boat Pack
4500.0,3.0,65.0,44.0,150.0,8.0,278.0,20.0,Turnigy nano-tech A-SPEC 4500mah 3S 65~130C Lipo Boat Pack
2200.0,3.0,35.0,34.0,107.0,2.0,201.0,26.0,B-Grade 2200mAh 3S 35C Lipoly Battery
2450.0,3.0,30.0,43.0,136.0,2.0,226.0,18.0,B-Grade 2450mAh 3S 30C Lipoly Battery
2650.0,3.0,30.0,43.0,140.0,2.0,250.0,19.0,B-Grade 2650mAh 3S 30C Lipoly Battery
2650.0,4.0,30.0,44.0,136.0,2.0,315.0,25.0,B-Grade 2650mAh 4S 30C Lipoly Battery
2650.0,4.0,40.0,43.0,135.0,2.0,321.0,26.0,B-Grade 2650mAh 4S 40C Lipoly Battery
3000.0,3.0,40.0,42.0,137.0,2.0,280.0,22.0,B-Grade 3000mAh 3S 40C Lipoly Battery
3300.0,3.0,30.0,43.0,140.0,2.0,300.0,22.0,B-Grade 3300mAh 3S 30C Lipoly Battery
1800.0,3.0,20.0,35.0,115.0,5.0,168.0,25.0,Zippy-K Flightmax 1800mah 3S1P 20C Lipoly Battery
2500.0,4.0,20.0,33.0,116.0,5.0,246.0,37.0,Zippy-K Flightmax 2500mah 4S1P 20C Lipoly Battery
2500.0,5.0,20.0,33.0,113.0,5.0,310.0,50.0,Zippy-K Flightmax 2500mah 5S1P 20C Lipoly Battery
3000.0,4.0,20.0,44.0,140.0,5.0,305.0,28.0,Zippy-K Flightmax 3000mah 4S1P 20C Lipoly Battery
4000.0,4.0,25.0,50.0,165.0,5.0,435.0,30.0,Zippy-K Flightmax 4000mah 4S1P 25C Lipoly Battery
260.0,1.0,35.0,20.0,32.0,5.0,8.0,7.0,Turnigy nano-tech 260mAh 1S 35-70C Lipo Pack (QR Ladybird/Genius CP/Mini CP)
2200.0,6.0,65.0,35.0,105.0,8.0,380.0,52.0,Turnigy nano-tech A-SPEC 2200mah 6S 65~130C Lipo Pack
350.0,2.0,25.0,30.0,58.0,5.0,25.0,8.0,ZIPPY Compact 350mAh 2S 25C Lipo Pack
350.0,3.0,25.0,30.0,58.0,5.0,38.0,11.0,ZIPPY Compact 350mAh 3S 25C Lipo Pack
500.0,2.0,35.0,30.0,58.0,5.0,32.0,10.0,ZIPPY Compact 500mAh 2S 35C Lipo Pack
500.0,3.0,35.0,30.0,58.0,5.0,47.0,15.0,ZIPPY Compact 500mAh 3S 35C Lipo Pack
850.0,2.0,35.0,30.0,58.0,5.0,50.0,16.0,ZIPPY Compact 850mAh 2S 35C Lipo Pack
850.0,3.0,35.0,30.0,58.0,5.0,73.0,24.0,ZIPPY Compact 850mAh 3S 35C Lipo Pack
1300.0,4.0,35.0,34.0,78.0,5.0,150.0,29.0,ZIPPY Compact 1300mAh 4S 35C Lipo Pack
1500.0,3.0,35.0,34.0,108.0,5.0,138.0,18.0,ZIPPY Compact 1500mAh 3S 35C Lipo Pack
1600.0,4.0,25.0,34.0,108.0,5.0,152.0,20.0,ZIPPY Compact 1600mAh 4S 25C Lipo Pack
1800.0,3.0,35.0,34.0,108.0,5.0,155.0,20.0,ZIPPY Compact 1800mAh 3S 35C Lipo Pack
1800.0,4.0,35.0,34.0,108.0,5.0,205.0,29.0,ZIPPY Compact 1800mAh 4S 35C Lipo Pack
2450.0,3.0,35.0,34.0,114.0,5.0,210.0,25.0,ZIPPY Compact 2450mAh 3S 35C Lipo Pack
2450.0,4.0,35.0,34.0,114.0,5.0,265.0,32.0,ZIPPY Compact 2450mAh 4S 35C Lipo Pack
2450.0,5.0,35.0,34.0,114.0,5.0,335.0,42.0,ZIPPY Compact 2450mAh 5S 35C Lipo Pack
2450.0,6.0,35.0,34.0,114.0,5.0,390.0,49.0,ZIPPY Compact 2450mAh 6S 35C Lipo Pack
1500.0,2.0,25.0,33.0,87.0,5.0,86.0,15.0,Turnigy nano-tech 1500mah 2S 25~50C Lipo Pack
1500.0,3.0,25.0,34.0,87.0,5.0,124.0,21.0,Turnigy nano-tech 1500mah 3S 25~50C Lipo Pack
1500.0,2.0,35.0,35.0,85.0,8.0,91.0,14.0,Turnigy nano-tech 1500mah 2S 35~70C Lipo Pack
1500.0,3.0,35.0,34.0,88.0,8.0,129.0,21.0,Turnigy nano-tech 1500mah 3S 35~70C Lipo Pack
1500.0,2.0,25.0,34.0,77.0,5.0,79.0,18.0,Turnigy 1500mAh 2S 25C Lipoly Battery
1500.0,3.0,25.0,34.0,80.0,5.0,122.0,25.0,Turnigy 1500mAh 3S 25C Lipo Pack
450.0,2.0,65.0,29.0,48.0,5.0,26.0,11.0,Turnigy nano-tech 450mAh 2S 65-130C Lipo Pack (E-flite Blade 130X)
300.0,1.0,45.0,6.0,44.0,5.0,8.0,17.0,Turnigy nano-tech 300mah 1S 45C Lipo Pack (Suits FBL100 and Blade mCPx)
300.0,1.0,45.0,17.0,43.0,2.0,9.0,6.0,Turnigy nano-tech 300mah 1S 45~90C Lipo Pack (Fits Nine Eagles Solo-Pro 100)
300.0,2.0,45.0,17.0,45.0,5.0,19.0,12.0,Turnigy nano-tech 300mah 2S 45~90C Lipo Pack
260.0,2.0,35.0,20.0,33.0,5.0,14.0,14.0,Turnigy nano-tech 260mah 2S 35~70C Lipo Pack (E-flite EFLB2002S25 micro series compatible)
260.0,2.0,35.0,20.0,33.0,5.0,16.0,14.0,Turnigy nano-tech 260mah 2S 35~70C Lipo Pack
4000.0,12.0,65.0,52.0,305.0,8.0,1418.0,45.0,Turnigy nano-tech A-SPEC 4000mah 12S 65~130C Lipo Pack
4500.0,12.0,65.0,52.0,295.0,8.0,1530.0,49.0,Turnigy nano-tech A-SPEC 4500mah 12S 65~130C Lipo Pack
5000.0,12.0,65.0,52.0,300.0,8.0,1717.0,56.0,Turnigy nano-tech A-SPEC 5000mah 12S 65~130C Lipo Pack
1800.0,2.0,12.0,50.0,70.0,2.0,90.0,15.0,Turnigy 1800mAh 2S 12C Lipo Receiver Pack
3600.0,2.0,12.0,45.0,77.0,2.0,186.0,28.0,Turnigy 3600mAh 2S 12C Lipo Receiver Pack
300.0,2.0,35.0,18.0,44.0,5.0,16.0,12.0,Turnigy nano-tech 300mah 2S 35~70C Lipo Pack (E-flite EFLB2002S25 micro series compatible)
2200.0,3.0,1.5,33.0,100.0,1.0,139.0,19.0,Turnigy 9XR Safety Protected 11.1v (3s) 2200mAh 1.5C Transmitter Pack
1000.0,2.0,20.0,20.0,101.0,5.0,51.0,11.0,Turnigy nano-tech 1000mah 2S 20~40C Lipo AIRSOFT Pack
600.0,1.0,20.0,24.0,42.0,2.0,18.0,10.0,"Walkera 600mAh 1S 20C Lipo Battery Pack (Suits QR Infra X, V120D02S)"
2200.0,2.0,30.0,34.0,87.0,2.0,120.0,19.0,ZIPPY Traxxas 2200mAh 2S1P 30C Lipo Pack (Suits TRA2820)
3300.0,2.0,30.0,43.0,138.0,2.0,200.0,24.0,ZIPPY Traxxas 3300mAh 2S1P 30C Lipo Pack (Suits TRA2840)
3800.0,2.0,30.0,44.0,156.0,2.0,227.0,25.0,ZIPPY Traxxas 3800mAh 2S1P 30C Lipo Pack (Suits TRA2866)
4000.0,2.0,30.0,43.0,136.0,2.0,231.0,25.0,ZIPPY Traxxas 4000mAh 2S1P 30C Lipo Pack (Suits TRA2841)
6000.0,2.0,30.0,44.0,138.0,2.0,329.0,26.0,ZIPPY Traxxas 6000mAh 2S1P 30C Lipo Pack (Suits TRA2843)
7600.0,2.0,30.0,45.0,157.0,2.0,367.0,25.0,ZIPPY Traxxas 7600mAh 2S1P 30C Lipo Pack (Suits TRA2869)
13000.0,2.0,30.0,45.0,156.0,2.0,625.0,44.0,ZIPPY Traxxas 13000mAh 2S1P 30C Lipo Pack (Suits TRA2875)
1400.0,3.0,30.0,35.0,90.0,2.0,121.0,19.0,ZIPPY Traxxas 1400mAh 3S1P 30C Lipo Pack (Suits TRA2823)
4000.0,3.0,30.0,44.0,137.0,2.0,324.0,25.0,ZIPPY Traxxas 4000mAh 3S1P 30C Lipo Pack (Suits TRX2849)
5000.0,3.0,30.0,45.0,154.0,2.0,359.0,24.0,ZIPPY Traxxas 5000mAh 3S1P 30C Lipo Pack (Suits TRA2872)
6400.0,3.0,30.0,44.0,138.0,2.0,522.0,41.0,ZIPPY Traxxas 6400mAh 3S1P 30C Lipo Pack (Suits TRA2857)
8400.0,3.0,30.0,45.0,156.0,2.0,614.0,43.0,ZIPPY Traxxas 8400mAh 3S1P 30C Lipo Pack (Suits TRA2878)
1000.0,3.0,20.0,20.0,101.0,5.0,72.0,16.0,Turnigy nano-tech 1000mAh 3S 20-40C Lipo AIRSOFT Pack
1000.0,2.0,2.0,20.0,100.0,5.0,55.0,6.0,Turnigy nano-tech 1000mAh 2S 20-40C Lipo AIRSOFT Pack
1000.0,3.0,20.0,20.0,100.0,5.0,78.0,6.0,Turnigy nano-tech 1000mAh 3S 20-40C Lipo AIRSOFT Pack
1500.0,2.0,20.0,30.0,97.0,5.0,80.0,14.0,Turnigy nano-tech 1500mAh 2S 20-40C Lipo AIRSOFT Pack
1500.0,3.0,20.0,31.0,98.0,5.0,116.0,20.0,Turnigy nano-tech 1500mAh 3S 20-40C Lipo AIRSOFT Pack
1500.0,2.0,20.0,29.0,95.0,5.0,82.0,7.0,Turnigy nano-tech 1500mAh 2S 20-40C Lipo AIRSOFT Pack
1500.0,3.0,20.0,31.0,95.0,5.0,123.0,7.0,Turnigy nano-tech 1500mAh 3S 20-40C Lipo AIRSOFT Pack
1200.0,2.0,25.0,17.0,116.0,5.0,55.0,13.0,Turnigy nano-tech 1200mAh 2S 25-50C Lipo AIRSOFT Pack
1200.0,3.0,25.0,16.0,116.0,5.0,80.0,19.0,Turnigy nano-tech 1200mAh 3S 25-50C Lipo AIRSOFT Pack
1200.0,2.0,25.0,16.0,118.0,5.0,59.0,7.0,Turnigy nano-tech 1200mAh 2S 25-50C Lipo AIRSOFT Pack
1200.0,3.0,25.0,16.0,116.0,5.0,85.0,6.0,Turnigy nano-tech 1200mAh 3S 25-50C Lipo AIRSOFT Pack
5000.0,2.0,60.0,25.0,139.0,5.0,315.0,46.0,Turnigy 5000mAh 2S 7.4V 60C Hardcase Pack
5000.0,4.0,60.0,44.0,164.0,5.0,637.0,52.0,Turnigy 5000mAh 4S 14.8V 60C Hardcase Pack
5600.0,4.0,60.0,44.0,164.0,5.0,700.0,52.0,Turnigy 5600mAh 4S 14.8V 60C Hardcase Pack
6600.0,4.0,60.0,51.0,164.0,2.0,818.0,52.0,Turnigy 6600mAh 4S 14.8V 60C Hardcase Pack
7200.0,4.0,40.0,52.0,165.0,2.0,840.0,52.0,Turnigy 7200mAh 4S 14.8V 40C Hardcase Pack
4400.0,2.0,40.0,25.0,138.0,5.0,279.0,47.0,Turnigy 4400mAh 2S 7.4V 60C Hardcase Pack
5000.0,4.0,60.0,44.0,163.0,5.0,612.0,52.0,Turnigy 5000mAh 4S 14.8V 60C Hardcase Pack (Removable Leads)
5600.0,4.0,60.0,44.0,164.0,2.0,662.0,52.0,Turnigy 5600mAh 4S 14.8V 60C Hardcase Pack (Removable Leads)
6400.0,4.0,60.0,52.0,165.0,2.0,782.0,52.0,Turnigy 6400mAh 4S 14.8V 60C Hardcase Pack (Removable Leads)
5000.0,6.0,60.0,59.0,143.0,2.0,882.0,50.0,Turnigy Heavy Duty Series 5000mAh 6S 60C Lipo Pack
4200.0,5.0,25.0,43.0,147.0,5.0,538.0,40.0,ZIPPY Compact 4200mAh 5S 25C Lipo Pack
750.0,1.0,35.0,24.0,43.0,5.0,20.0,10.0,Turnigy nano-tech 750mAh 1S 35-70C Lipo Pack (for Walkera V120D02S/QR Infra X/QR W100S)
1800.0,3.0,65.0,31.0,102.0,8.0,159.0,25.0,Turnigy nano-tech A-SPEC G2 1800mah 3S 65~130C Lipo Pack
1800.0,4.0,65.0,31.0,102.0,8.0,205.0,33.0,Turnigy nano-tech A-SPEC G2 1800mah 4S 65~130C Lipo Pack
2200.0,3.0,65.0,34.0,103.0,8.0,192.0,26.0,Turnigy nano-tech A-SPEC G2 2200mah 3S 65~130C Lipo Pack
2200.0,4.0,65.0,34.0,103.0,8.0,249.0,33.0,Turnigy nano-tech A-SPEC G2 2200mah 4S 65~130C Lipo Pack
2600.0,3.0,65.0,39.0,129.0,8.0,229.0,22.0,Turnigy nano-tech A-SPEC G2 2600mah 3S 65~130C Lipo Pack
2600.0,4.0,65.0,39.0,129.0,8.0,296.0,28.0,Turnigy nano-tech A-SPEC G2 2600mah 4S 65~130C Lipo Pack
3200.0,3.0,65.0,43.0,138.0,8.0,282.0,21.0,Turnigy nano-tech A-SPEC G2 3200mah 3S 65~130C Lipo Pack
3200.0,4.0,65.0,43.0,138.0,8.0,364.0,28.0,Turnigy nano-tech A-SPEC G2 3200mah 4S 65~130C Lipo Pack
3200.0,6.0,65.0,43.0,138.0,8.0,522.0,40.0,Turnigy nano-tech A-SPEC G2 3200mah 6S 65~130C Lipo Pack
3700.0,3.0,65.0,44.0,138.0,8.0,317.0,24.0,Turnigy nano-tech A-SPEC G2 3700mah 3S 65~130C Lipo Pack
3700.0,4.0,65.0,44.0,138.0,8.0,408.0,31.0,Turnigy nano-tech A-SPEC G2 3700mah 4S 65~130C Lipo Pack
3700.0,6.0,65.0,44.0,138.0,8.0,594.0,46.0,Turnigy nano-tech A-SPEC G2 3700mah 6S 65~130C Lipo Pack
4250.0,3.0,65.0,45.0,138.0,8.0,350.0,27.0,Turnigy nano-tech A-SPEC G2 4250mah 3S 65~130C Lipo Pack
4250.0,4.0,65.0,45.0,138.0,8.0,455.0,36.0,Turnigy nano-tech A-SPEC G2 4250mah 4S 65~130C Lipo Pack
4250.0,6.0,65.0,45.0,138.0,8.0,663.0,52.0,Turnigy nano-tech A-SPEC G2 4250mah 6S 65~130C Lipo Pack
5000.0,4.0,65.0,46.0,156.0,8.0,537.0,35.0,Turnigy nano-tech A-SPEC G2 5000mah 4S 65~130C Lipo Pack
5000.0,5.0,65.0,46.0,156.0,8.0,658.0,42.0,Turnigy nano-tech A-SPEC G2 5000mah 5S 65~130C Lipo Pack
5000.0,6.0,65.0,46.0,156.0,8.0,786.0,51.0,Turnigy nano-tech A-SPEC G2 5000mah 6S 65~130C Lipo Pack
3700.0,3.0,20.0,46.0,138.0,5.0,286.0,24.0,Zippy-K Flightmax 3700mah 3S1P 20C Lipoly Battery
3700.0,4.0,20.0,44.0,137.0,5.0,366.0,32.0,Zippy-K Flightmax 3700mah 4S1P 20C Lipoly Battery
3700.0,5.0,20.0,48.0,139.0,5.0,460.0,39.0,Zippy-K Flightmax 3700mah 5S1P 20C Lipoly Battery
7500.0,2.0,90.0,25.0,138.0,2.0,350.0,47.0,Turnigy nano-tech Ultimate 7500mah 2S2P 90C Hardcase Lipo Pack (ROAR Approved)
5800.0,3.0,25.0,65.0,148.0,5.0,617.0,27.0,B-Grade 5800mAh 3S 25C Lipoly Battery
1550.0,6.0,65.0,34.0,120.0,5.0,247.0,27.0,Turnigy nano-tech 1550mah 6S 65~130C Lipo Pack (450L Heli)
2400.0,3.0,65.0,25.4,114.0,2.0,197.0,34.0,Turnigy Bolt 2400mAh 3S 11.4V 65~130C High Voltage Lipoly Pack
2400.0,4.0,65.0,33.0,114.0,2.0,248.0,34.0,Turnigy Bolt 2400mAh 4S 15.2V 65~130C High Voltage Lipoly Pack
2800.0,3.0,65.0,18.3,142.0,2.0,256.0,44.0,Turnigy Bolt 2800mAh 3S 11.4V 65~130C High Voltage Lipoly Pack
2800.0,4.0,65.0,24.0,142.0,2.0,314.0,44.0,Turnigy Bolt 2800mAh 4S 15.2V 65~130C High Voltage Lipoly Pack
3450.0,3.0,65.0,22.2,145.0,2.0,301.0,49.0,Turnigy Bolt 3450mAh 3S 11.4V 65~130C High Voltage Lipoly Pack
345.0,4.0,65.0,29.2,145.0,2.0,374.0,49.0,Turnigy Bolt 3450mAh 4S 15.2V 65~130C High Voltage Lipoly Pack
5400.0,3.0,65.0,28.6,167.0,2.0,439.0,49.0,Turnigy Bolt 5400mAh 3S 11.4V 65~130C High Voltage Lipoly Pack
5400.0,6.0,65.0,56.1,167.0,2.0,821.0,49.0,Turnigy Bolt 5400mAh 6S 22.8V 65~130C High Voltage Lipoly Pack
2400.0,2.0,65.0,17.2,114.0,2.0,134.0,34.0,Turnigy Bolt 2400mAh 2S 7.6V 65~130C High Voltage Lipoly Pack
6600.0,2.0,90.0,25.0,139.0,2.0,340.0,47.0,Turnigy nano-tech Ultimate 6600mah 2S2P 90C Hardcase Lipo Pack (ROAR Approved)
6000.0,2.0,90.0,25.0,139.0,2.0,340.0,47.0,Turnigy nano-tech Ultimate 6000mah 2S2P 90C Hardcase Lipo Pack (ROAR Approved)
6000.0,2.0,90.0,25.0,70.0,2.0,324.0,47.0,Turnigy nano-tech Ultimate 6000mah 2S3P 90C Hardcase Lipo Saddle Pack (ROAR Approved)
4600.0,2.0,90.0,25.0,96.0,2.0,237.0,47.0,Turnigy nano-tech Ultimate 4600mah 2S2P 90C Hardcase Lipo Short Pack (ROAR Approved)
6400.0,1.0,90.0,18.0,93.0,2.0,170.0,47.0,Turnigy nano-tech Ultimate 6400mah 1S2P 90C Hardcase Lipo Pack (ROAR Approved)
6400.0,2.0,90.0,25.0,93.0,2.0,326.0,68.0,Turnigy nano-tech Ultimate 6400mah 2S2P 90C Hardcase Lipo Square Pack
330.0,2.0,45.0,20.0,44.0,2.0,19.0,11.0,Turnigy nano-tech 330mah 2S 45~90C Lipo Pack for Align T-Rex 150 DFC
2200.0,4.0,60.0,34.0,107.0,2.0,257.0,35.0,Turnigy Heavy Duty 2200mAh 4S 60C Lipo Pack
2650.0,3.0,60.0,44.0,140.0,2.0,262.0,20.0,Turnigy Heavy Duty 2650mAh 3S 60C Lipo Pack
3000.0,3.0,60.0,44.0,140.0,2.0,289.0,22.0,Turnigy Heavy Duty 3000mAh 3S 60C Lipo Pack
3000.0,4.0,60.0,44.0,140.0,2.0,370.0,29.0,Turnigy Heavy Duty 3000mAh 4S 60C Lipo Pack
3000.0,6.0,60.0,44.0,140.0,2.0,540.0,44.0,Turnigy Heavy Duty 3000mAh 6S 60C Lipo Pack
3300.0,2.0,60.0,43.0,138.0,2.0,216.0,17.0,Turnigy Heavy Duty 3300mAh 2S 60C Lipo Pack
3300.0,3.0,60.0,43.0,138.0,2.0,312.0,24.0,Turnigy Heavy Duty 3300mAh 3S 60C Lipo Pack
3300.0,4.0,60.0,43.0,138.0,2.0,400.0,32.0,Turnigy Heavy Duty 3300mAh 4S 60C Lipo Pack
3300.0,6.0,60.0,43.0,138.0,2.0,585.0,47.0,Turnigy Heavy Duty 3300mAh 6S 60C Lipo Pack
4000.0,3.0,60.0,49.0,147.0,2.0,371.0,24.0,Turnigy Heavy Duty 4000mAh 3S 60C Lipo Pack
4000.0,4.0,60.0,49.0,147.0,2.0,476.0,32.0,Turnigy Heavy Duty 4000mAh 4S 60C Lipo Pack
4000.0,6.0,60.0,49.0,147.0,2.0,683.0,47.0,Turnigy Heavy Duty 4000mAh 6S 60C Lipo Pack
5000.0,3.0,6.0,50.0,147.0,2.0,464.0,30.0,Turnigy Heavy Duty 5000mAh 3S 60C Lipo Pack
5000.0,4.0,60.0,50.0,147.0,2.0,602.0,40.0,Turnigy Heavy Duty 5000mAh 4S 60C Lipo Pack